References :   M.Wernli;P.Valiron;A.Faure;L.Wiesenfeld;P.Jankowski;K.Szalewicz;Astron. Astrophys.446367-372
Rotational de-excitation of CO by ortho-H$_2$ (j=1), 5K < T < 70K - 6 levels (Wernli et al., 2006)
>
Number of temperature columns = 8

       I1       J1       Temperature (K)    

                               5                  10                  20                  30                  40                  50                  60                  70

       2       1        4.130000e-11        3.790000e-11        3.390000e-11        3.300000e-11        3.300000e-11        3.360000e-11        3.430000e-11        3.520000e-11
       3       1        5.780000e-11        5.590000e-11        5.220000e-11        4.960000e-11        4.810000e-11        4.720000e-11        4.680000e-11        4.670000e-11
       3       2        7.500000e-11        7.120000e-11        6.560000e-11        6.240000e-11        6.110000e-11        6.080000e-11        6.120000e-11        6.210000e-11
       4       1        6.580000e-12        7.130000e-12        7.320000e-12        7.500000e-12        7.770000e-12        8.130000e-12        8.540000e-12        8.990000e-12
       4       2        7.920000e-11        8.320000e-11        8.140000e-11        7.830000e-11        7.590000e-11        7.440000e-11        7.340000e-11        7.290000e-11
       4       3        8.030000e-11        7.490000e-11        7.020000e-11        6.810000e-11        6.730000e-11        6.730000e-11        6.780000e-11        6.860000e-11
       5       1        5.830000e-12        6.070000e-12        6.120000e-12        6.120000e-12        6.130000e-12        6.160000e-12        6.210000e-12        6.260000e-12
       5       2        1.050000e-11        1.240000e-11        1.370000e-11        1.440000e-11        1.500000e-11        1.580000e-11        1.660000e-11        1.750000e-11
       5       3        8.260000e-11        8.930000e-11        9.010000e-11        8.760000e-11        8.510000e-11        8.320000e-11        8.170000e-11        8.070000e-11
       5       4        8.030000e-11        7.880000e-11        7.460000e-11        7.210000e-11        7.090000e-11        7.050000e-11        7.070000e-11        7.130000e-11
       6       1        1.410000e-12        1.580000e-12        1.800000e-12        1.990000e-12        2.180000e-12        2.390000e-12        2.610000e-12        2.840000e-12
       6       2        1.060000e-11        1.050000e-11        1.060000e-11        1.060000e-11        1.070000e-11        1.080000e-11        1.090000e-11        1.110000e-11
       6       3        1.210000e-11        1.500000e-11        1.720000e-11        1.820000e-11        1.900000e-11        1.980000e-11        2.070000e-11        2.160000e-11
       6       4        9.130000e-11        9.710000e-11        9.770000e-11        9.440000e-11        9.110000e-11        8.830000e-11        8.600000e-11        8.420000e-11
       6       5        5.660000e-11        6.940000e-11        7.340000e-11        7.270000e-11        7.190000e-11        7.150000e-11        7.150000e-11        7.180000e-11
